<<PMCA SPECTRUM>>
TAG - live_data
DESCRIPTION - 
GAIN - 2
THRESHOLD - 0
LIVE_MODE - 0
PRESET_TIME - 0
LIVE_TIME - 3597.142000
REAL_TIME - 3597.142000
START_TIME - 12/01/2020 15:42:34
SERIAL_NUMBER - 0
<<DATA>>
0
0
0
0
0
16831
30519
38763
45735
53108
59315
64656
69349
72864
76158
78451
80916
82682
84590
85527
86270
88032
88550
89873
90452
91474
92528
92870
93346
94169
95149
95604
96476
96617
97648
98853
99048
99850
100240
101686
101429
103609
104100
105539
106668
107723
108978
110448
112249
112817
114568
115723
115690
115258
115622
115164
114467
114633
113992
113947
114570
114716
115478
116013
117093
116755
119022
119503
121081
122999
124632
128738
131393
136747
141285
148239
155633
165582
175646
185699
196607
206998
214727
218995
223780
223943
222596
219423
214213
210240
205188
200419
195144
191746
187020
182720
178133
174193
171070
165219
161549
156553
153960
150115
146442
144017
141175
140206
138535
137777
137493
137732
136684
137929
137813
138433
138375
138927
140214
141349
142214
142539
142997
144943
145065
146329
146856
147719
147561
149307
149788
150085
150456
151045
151125
152405
152441
153219
153509
154642
154225
156297
156004
156566
156121
157223
157477
158237
159097
158889
160111
159889
161722
161567
162114
163782
163765
164659
164825
165544
167162
168869
169837
170515
171583
172752
174008
175019
176307
177039
179033
180219
182343
184290
185223
188394
188710
190876
193134
196797
198818
202532
205107
208042
212704
214532
220404
223776
228644
232222
236993
242496
246451
251373
256267
260751
264280
267761
270839
275039
276100
276104
279252
279703
278293
276989
276459
273284
270636
269033
265638
262550
257688
254646
250104
246462
241930
237484
233795
229922
227212
222078
220028
216037
214544
209958
207278
204781
201940
200180
197712
195791
193739
192484
191130
188141
186440
184698
183556
181698
179785
178822
177940
176353
174198
173609
171576
170498
169485
168792
167059
165820
164303
163455
162712
160669
160432
158309
157899
157828
154773
153783
154097
152761
151197
150377
149101
148936
148845
146362
146203
143940
144680
143921
143571
141720
141802
140578
139862
139694
139034
138164
137723
137558
136199
136529
135605
135104
134845
133931
134319
133307
132771
132268
131504
131850
131531
131071
130616
130609
130080
130004
129599
128639
128815
128326
128121
128080
127732
127501
127714
127365
127397
126779
126648
127106
126323
126367
125785
125775
126048
126099
125891
125558
125808
124921
125207
124545
125218
125067
125089
125140
124089
124621
123802
124949
124322
124855
124259
125021
125002
124146
123945
124414
124575
124524
124627
124018
124590
125016
124098
124746
124852
125023
125321
125083
125225
124946
125756
125290
126202
126103
125945
126266
126070
126445
126062
126502
126137
126524
126250
126845
127124
128000
127633
127535
127627
128258
127953
127762
128451
127452
128072
128619
128360
129483
129330
129174
128568
129244
130078
128620
129868
130317
130338
129843
130698
130683
131174
131074
131518
131845
131619
131996
132181
132866
132407
132454
132121
132453
133000
133386
133810
133780
134240
134232
134289
135237
134619
134992
135104
135348
135421
136310
136559
136796
136906
136803
137580
136909
137875
136722
138068
137686
138599
139058
138874
139272
138886
139773
139358
139311
139455
138909
139951
139217
140391
139257
139437
139252
140231
139477
138911
139348
138484
138877
138361
138357
138057
137309
137502
135820
136081
135166
135242
133902
134173
132958
132234
132213
130945
131330
129154
128993
128478
127901
126944
125962
125260
124329
123262
123003
121675
120899
120706
120042
118589
118254
117289
116900
116638
116150
114875
114717
113864
113314
112850
112825
111769
111178
110866
110680
110599
110647
109449
109305
109021
109278
108525
109098
108938
108147
107985
107793
107961
107444
107931
107447
108386
107462
107226
107687
106909
107986
108001
107407
107795
107591
107878
107218
108804
107686
108460
107959
108772
108769
108531
108858
108796
108788
109232
109127
109965
109302
109757
109781
109991
109872
110750
110016
110840
110653
110520
110886
111122
111716
110684
111301
111603
112073
111888
112158
112688
112404
112847
113112
113227
112906
114017
113851
114556
114765
114820
114995
114598
115378
116158
115864
115949
116434
116482
116969
117647
116833
118185
118218
118482
118210
119094
118975
119276
120507
120355
120863
120506
121195
121651
121702
122206
122345
123475
123887
124140
123642
125098
125725
125116
126744
126729
127526
127594
129799
130105
130129
131928
132193
132964
133660
135589
136126
137767
139494
141223
141736
143343
144932
146370
148533
150645
153243
155018
157225
159666
162946
165492
168800
172592
175456
179974
183595
188450
193301
197281
202338
208000
214528
219340
226855
232485
239406
247836
254266
262794
270178
278292
287532
296587
306900
316316
325351
335007
345915
355908
368487
377612
389813
401694
410926
424291
433752
444270
454668
467340
474987
487143
496546
504056
514953
521144
531190
535632
543634
546697
553483
558039
559875
562771
562068
563460
561179
561095
555696
553239
547134
540638
535652
525991
516948
507427
498625
483386
474663
461721
446015
434204
417845
404054
387612
373374
358508
342047
326695
311359
295734
279500
265767
250455
235869
222635
208852
195584
182626
171190
159312
148161
137486
128289
118703
109862
102155
94157
86856
80046
74048
68518
63214
58413
54428
50553
46750
43652
40730
37980
35670
33511
31395
29793
28397
26996
25658
24515
23941
23099
22073
21690
21134
20616
19845
19414
19225
18863
18487
18147
18124
17634
17583
17378
17653
17166
16913
17068
16862
16612
16611
16668
16409
16389
16293
16054
15909
16113
15932
15834
15609
15632
15551
15417
15357
15133
15328
15082
15138
15016
14966
15191
15053
14863
14494
14775
14813
14599
14532
14564
14342
14275
14143
14075
14157
14158
14088
14203
14171
13948
13993
13706
13732
13845
13663
13617
13541
13623
13309
13448
13220
13296
12965
13096
13034
13182
12991
12896
12852
12931
12707
12757
12652
12809
12566
12668
12652
12212
12256
12131
12230
12184
12053
11990
11876
11952
11961
11685
11724
11705
11661
11433
11522
11501
11482
11340
11206
11222
11198
10892
10856
10929
11073
10929
10763
10647
10858
10674
10661
10643
10436
10283
10560
10085
10376
10313
10246
10197
10080
10025
10092
9997
9825
9943
9797
9928
9826
9721
9490
9722
9480
9511
9335
9421
9421
9311
9243
9320
9254
9053
9185
9034
8968
8835
8867
8709
8815
8671
8742
8784
8511
8697
8514
8610
8375
8342
8452
8201
8240
8171
8099
8176
8049
8133
8041
8004
7889
7811
7802
7854
7890
7715
7658
7674
7603
7400
7599
7361
7433
7393
7376
7532
7317
7211
7208
7195
6992
7031
7126
7144
6968
7029
7065
6873
7047
6960
6963
6878
6873
6848
6826
6770
6756
6679
6671
6625
6631
6445
6555
6629
6477
6550
6501
6500
6458
6292
6323
6234
6204
6270
6141
6154
6318
6092
6104
6000
6044
6157
6133
6041
6042
5893
6181
5961
6036
5870
5910
5945
5982
6062
5808
5867
5714
5774
5775
5766
5736
5785
5623
5657
5742
5525
5651
5577
5492
5579
5471
5507
5486
5435
5487
<<END>>
<<DP5 CONFIGURATION>>
RESC=?;    Reset Configuration
CLCK=20;    20MHz/80MHz
TPEA=1.600;    Peaking Time
GAIF=1.1263;    Fine Gain
GAIN=2.879;    Total Gain (Analog * Fine)
RESL=OFF;    Detector Reset Lockout
TFLA=0.200;    Flat Top
TPFA=400;    Fast Channel Peaking Time
PURE=ON;    PUR Interval On/Off
SCTC=OFF;    Scintillator Time Constant
RTDE=OFF;    RTD On/Off
MCAS=NORM;    MCA Source
MCAC=1024;    MCA/MCS Channels
SOFF=OFF;    Set Spectrum Offset
AINP=NEG;    Analog Input Pos/Neg
GAIA=2;    Analog Gain Index
CUSP=0;    Non-Trapezoidal Shaping
PDMD=NORM;    Peak Detect Mode (Min/Max)
THSL=0.500;    Slow Threshold
TLLD=OFF;    LLD Threshold
THFA=511.93;    Fast Threshold
DACO=PEAK;    DAC Output
DACF=50;    DAC Offset
RTDS=0;    RTD Sensitivity
RTDT=0.00;    RTD Threshold
BLRM=1;    BLR Mode
BLRD=3;    BLR Down Correction
BLRU=0;    BLR Up Correction
AUO1=PEAKH;    AUX_OUT Selection
PRET=OFF;    Preset Time
PRER=3600.000;    Preset Real Time
PREC=OFF;    Preset Counts
PRCL=0;    Preset Counts Low Threshold
PRCH=8191;    Preset Counts High Threshold
HVSE=750;    HV Set
SCOE=FA;    Scope Trigger Edge
SCOT=12;    Scope Trigger Position
SCOG=1;    Digital Scope Gain
MCSL=0;    MCS Low Threshold
MCSH=8191;    MCS High Threshold
MCST=0.01;    MCS Timebase
AUO2=ICR;    AUX_OUT2 Selection
TPMO=OFF;    Test Pulser On/Off
GPED=FA;    G.P. Counter Edge
GPIN=AUX2;    G.P. Counter Input
GPME=ON;    G.P. Counter Uses MCA_EN?
GPGA=ON;    G.P. Counter Uses GATE?
GPMC=ON;    G.P. Counter Cleared With MCA Counters?
MCAE=OFF;    MCA/MCS Enable
CON1=DAC;    Connector 1
CON2=AUXOUT2;    Connector 2
<<DP5 CONFIGURATION END>>
<<DPP STATUS>>
Device Type: TB5
Serial Number: 1168
Firmware: 6.09  Build:  0
FPGA: 6.11
Fast Count: 48453
Slow Count: 127009600
GP Count: 48453
Accumulation Time: 3597.142000
Real Time: 3600.000000
Dead Time:       
HV Volt: 750V
TEC Temp: 296.2K
Board Temp: 26°C
<<DPP STATUS END>>
