<<PMCA SPECTRUM>>
TAG - live_data
DESCRIPTION - 
GAIN - 2
THRESHOLD - 0
LIVE_MODE - 0
PRESET_TIME - 0
LIVE_TIME - 3597.142000
REAL_TIME - 3597.142000
START_TIME - 12/01/2020 06:44:19
SERIAL_NUMBER - 0
<<DATA>>
0
0
0
0
0
16495
29586
38112
46100
52682
58815
62840
67146
71056
73047
75390
77596
78493
78871
80502
81180
82599
83360
83708
84040
85260
86066
86604
87931
87847
88423
88757
90100
90592
91263
91389
91874
92824
94077
93903
95087
95864
97214
97995
99610
100341
102343
103672
105830
106151
107632
108421
107639
107969
107072
106537
106038
106904
106344
106631
106824
106610
107841
108330
109725
109540
111507
112688
113845
116091
117626
120447
125126
129213
135030
142412
150153
159544
170232
180798
190820
200452
210577
215980
219591
220005
218176
215030
210440
204990
198170
193132
188867
185241
179987
177493
172268
169305
164762
160568
155725
151823
148011
145104
140444
139833
136939
134799
132945
133121
132586
132143
132789
133053
132591
133634
134749
135239
136234
137190
138303
139817
140183
141158
141278
142825
143945
144524
144840
145976
145950
146554
147509
147717
148918
148992
149575
150307
150287
150889
151697
152004
152008
153094
153287
154283
154679
154721
155586
155280
156740
157240
157871
158283
159237
159497
160459
161156
161924
162432
163550
164151
165264
166868
167913
168205
169246
170870
172367
172829
174839
176039
177434
178824
180642
183015
185265
186770
189123
192024
194473
198262
200805
204003
208323
211071
215612
220201
225165
229020
234601
240124
244464
249882
254230
259852
263941
268485
270732
273606
276730
277413
279279
279336
278541
276891
276947
273850
271005
267914
264109
259476
255272
251439
247132
241951
237367
233264
228469
224815
220737
216024
213172
208406
205970
203114
199030
197254
193827
191491
188529
187456
184892
182598
181131
178496
176761
175711
174005
172036
171114
168177
168005
167343
164008
163662
161671
161119
159401
158212
157704
156431
155084
153350
152489
150626
149875
148859
149635
147438
146356
145401
143613
142953
142095
141758
139715
138776
138461
137626
136748
136077
134996
134163
133676
132479
131996
131515
129752
129787
129856
129026
128048
127796
126458
127171
126114
125657
124734
123831
124304
123318
123287
122444
122803
122012
121207
121257
120568
121016
120157
120376
119959
119291
119859
118660
118452
118750
118289
117164
117616
117888
117649
117526
116805
116436
116638
116145
116150
116208
115735
115550
115881
115477
115564
115232
116101
115780
116138
115405
115208
115327
114730
115208
115024
115310
114535
114854
115172
114594
114650
114378
115251
115089
115349
114075
114950
115089
115206
114940
114704
115392
114831
115461
115672
115923
114738
115946
115878
115394
116178
115804
116053
116023
116061
116534
116334
116580
116015
116138
116312
117478
117496
116499
117483
117299
117757
117317
117511
117717
117346
117672
117971
118027
117979
118058
118261
117752
119149
119174
119121
119302
119257
119223
120060
119359
119665
119589
120618
120492
119681
120836
120540
120900
120646
121312
121207
121600
122582
122054
122591
122781
122838
121915
122293
123307
123656
124115
123790
124572
124515
124461
124634
125361
125660
125620
125525
125381
125477
126586
126517
126376
127219
127281
127349
128042
126499
127852
127360
128352
127883
128524
128322
128222
128558
127811
128378
128400
128334
128059
128387
127582
127662
127635
128240
127635
127424
126744
126875
126816
125749
125412
125200
124057
124195
122847
122771
122231
121310
120960
120821
119599
118841
117989
117052
117300
115993
115617
115521
113772
113055
112748
112241
110442
110984
109728
108576
108761
107361
107123
106314
106399
105940
104570
104143
104635
103713
102914
102833
102287
101992
101728
100918
100967
99559
100118
99904
99827
99018
99052
99223
99397
99051
98843
98848
98334
98364
98163
98430
98301
98461
99020
97787
98295
98431
98226
98088
98145
98522
98507
98507
98298
98634
98441
99101
98789
98525
98891
99003
99535
99451
99423
98844
99470
99785
99362
100103
99790
100220
100567
100152
100724
100186
101002
100552
101568
101365
101556
101858
101894
102168
102301
102688
102578
102809
102843
103679
103341
103404
103318
104487
104064
104201
104943
104605
104589
105721
105416
106483
105752
106307
106610
106437
106624
107323
106826
108077
107723
107565
108317
108248
108661
109000
109408
109555
110232
109232
110776
111076
112053
112205
112126
112783
112482
113233
113747
113770
115437
115428
115858
116597
117437
117830
118252
119360
120077
120956
121548
122728
124039
124660
125684
126956
128664
128974
131612
132202
134581
136377
137817
140156
142126
145009
147039
149937
152652
155848
158583
162464
165673
170381
173862
177694
181597
186768
192142
198134
203683
208478
215220
222247
228070
235612
241924
251305
258231
266733
274706
282760
292458
301562
311761
320286
331054
339386
349876
360089
369554
380215
388801
400003
410875
419402
428382
439447
448051
454938
464406
469150
479528
482335
489781
495547
500253
502673
504625
507306
508555
509067
507975
507827
503910
501479
498589
490942
484487
477229
470714
459979
451322
440082
432233
419288
405786
394102
379641
368343
353218
339495
325376
311864
296956
283934
270125
255519
241412
227815
214742
202154
189483
177986
166147
155988
144480
134275
125038
115831
107952
99371
92127
84415
78800
72585
66888
61008
57423
52583
48423
45281
41766
38825
35781
33742
31361
29416
27499
26081
24832
23617
22513
21599
20782
19998
19307
18728
18043
17728
17182
16709
16332
16281
15851
15746
15462
15469
15297
14965
14846
14678
14664
14612
14371
14283
14125
14004
13936
14276
13661
13803
13633
13651
13345
13533
13396
13461
13364
13185
12873
13229
13084
13378
12945
12819
12670
12826
12769
12477
12613
12381
12528
12363
12414
12224
12338
12119
12274
12003
12098
12173
12022
11757
11704
11919
11913
11741
11632
11674
11533
11790
11474
11495
11684
11364
11336
11286
11192
11290
11241
11174
11020
11116
11143
11116
10786
10743
10911
10658
10622
10647
10525
10537
10616
10608
10399
10240
10288
10299
10179
10188
10009
9861
9865
9844
9742
9733
9729
9987
9604
9393
9525
9626
9286
9396
9279
9315
9316
9264
9383
9002
9142
8914
9003
8815
8868
8803
8835
8872
8643
8614
8487
8570
8539
8406
8336
8479
8486
8331
8381
8229
8353
8144
8099
7853
7955
7987
8104
7987
7946
7732
7625
7621
7613
7565
7550
7391
7488
7563
7444
7355
7437
7257
7187
7286
7161
7140
6988
7025
6875
7047
6848
6786
6837
6824
6786
6692
6758
6592
6729
6603
6633
6486
6284
6417
6518
6286
6257
6415
6416
6279
6322
6105
6137
6231
6248
6125
6024
6044
5931
5977
5958
5919
5773
5841
5943
5792
5746
5745
5664
5755
5744
5692
5867
5608
5588
5546
5709
5599
5455
5344
5354
5399
5320
5504
5474
5222
5309
5390
5414
5259
5405
5273
5206
5167
5126
5169
5242
5042
5038
5237
5091
5006
5047
4999
5030
4862
4997
4920
5031
4907
4921
4864
4772
4708
4791
4785
4713
4672
4720
4717
4672
4706
4637
4580
4680
4710
4582
4599
4613
4643
4506
4622
4444
4532
4599
<<END>>
<<DP5 CONFIGURATION>>
RESC=?;    Reset Configuration
CLCK=20;    20MHz/80MHz
TPEA=1.600;    Peaking Time
GAIF=1.1263;    Fine Gain
GAIN=2.879;    Total Gain (Analog * Fine)
RESL=OFF;    Detector Reset Lockout
TFLA=0.200;    Flat Top
TPFA=400;    Fast Channel Peaking Time
PURE=ON;    PUR Interval On/Off
SCTC=OFF;    Scintillator Time Constant
RTDE=OFF;    RTD On/Off
MCAS=NORM;    MCA Source
MCAC=1024;    MCA/MCS Channels
SOFF=OFF;    Set Spectrum Offset
AINP=NEG;    Analog Input Pos/Neg
GAIA=2;    Analog Gain Index
CUSP=0;    Non-Trapezoidal Shaping
PDMD=NORM;    Peak Detect Mode (Min/Max)
THSL=0.500;    Slow Threshold
TLLD=OFF;    LLD Threshold
THFA=511.93;    Fast Threshold
DACO=PEAK;    DAC Output
DACF=50;    DAC Offset
RTDS=0;    RTD Sensitivity
RTDT=0.00;    RTD Threshold
BLRM=1;    BLR Mode
BLRD=3;    BLR Down Correction
BLRU=0;    BLR Up Correction
AUO1=PEAKH;    AUX_OUT Selection
PRET=OFF;    Preset Time
PRER=3600.000;    Preset Real Time
PREC=OFF;    Preset Counts
PRCL=0;    Preset Counts Low Threshold
PRCH=8191;    Preset Counts High Threshold
HVSE=750;    HV Set
SCOE=FA;    Scope Trigger Edge
SCOT=12;    Scope Trigger Position
SCOG=1;    Digital Scope Gain
MCSL=0;    MCS Low Threshold
MCSH=8191;    MCS High Threshold
MCST=0.01;    MCS Timebase
AUO2=ICR;    AUX_OUT2 Selection
TPMO=OFF;    Test Pulser On/Off
GPED=FA;    G.P. Counter Edge
GPIN=AUX2;    G.P. Counter Input
GPME=ON;    G.P. Counter Uses MCA_EN?
GPGA=ON;    G.P. Counter Uses GATE?
GPMC=ON;    G.P. Counter Cleared With MCA Counters?
MCAE=OFF;    MCA/MCS Enable
CON1=DAC;    Connector 1
CON2=AUXOUT2;    Connector 2
<<DP5 CONFIGURATION END>>
<<DPP STATUS>>
Device Type: TB5
Serial Number: 1168
Firmware: 6.09  Build:  0
FPGA: 6.11
Fast Count: 35915
Slow Count: 117964411
GP Count: 35915
Accumulation Time: 3597.142000
Real Time: 3600.000000
Dead Time:       
HV Volt: 750V
TEC Temp: 295.4K
Board Temp: 25°C
<<DPP STATUS END>>
